Folder: Sci1Page/exemplary_data/XRD

Note: README.md
--Author: Yangwei Shi/ GingerLab@UW

Sci1Page repository consists of comprehensive functions for plotting published figures.

Based on the jupyter notebook, you can plot figures or analyze your data, keeping track of the research progress.

This makes it easier to make the figures styles consistent, also easier to replot the figures if necessary.

The functions will include:

1. XRD patterens
2. Time resolved photoluminescence (plot and fitting) (TRPL)
3. PL emission
4. SKPM
5. Solar cell devcice parameters extraction (Voc, Jsc, FF, PCE)
6. Box plot of Voc, Jsc, FF, PCE
7. JVcurve plot
8. UV-vis
9. perovskite precursor calculator--from PVSK_composition import PVSK

The data folder contains the various data for the exemplary example_Sci1Page.ipynb.

How to use this Sci1Page? Please refer to the example_Sci1Page.ipynb.

Basically, import the function, use help() function to identify the input parameters

File: sample1.xy
'Id: "" Comment: "Integrate frame 3_Br25_001.gfrmwith cursor Full Frame Cursor #19" Operator: "MAF user" Anode: "Cu" Scantype: "TwoTheta" TimePerStep: "60"
4.64 -0.114016
4.92 -0.10142
5.2 0.343778
5.48 0.0372633
5.76 0.183423
6.04 0.195601
6.32 -0.0316986
6.6 0.119912
6.88 -0.0402148
7.16 -0.0725763
7.44 0.1503
7.72 0.0288683
8 0.125369
8.28 0.0624646
8.56 0.181566
8.84 0.0104832
9.12 0.134244
9.4 0.223605
9.68 -0.0996704
9.96 0.0865801
10.24 0.0163484
10.52 0.216797
10.8 0.0284223
11.08 0.00656389
11.36 -0.0417978
11.64 -0.0649732
11.92 -0.0195002
12.2 -0.0995917
12.48 0.189298
12.76 0.527014
13.04 -0.0174324
13.32 -0.0234239
13.6 0.0388963
13.88 1.49184
14.16 30.1125
14.44 0.890922
14.72 0.109283
15 -0.0565318
15.28 0.0613454
15.56 0.0558326
15.84 -0.0348684
16.12 -0.00507537
16.4 0.126251
16.68 -0.0375934
16.96 -0.0473666
17.24 -0.0301819
17.52 0.0275552
17.8 0.0747585
18.08 -0.075171
18.36 0.0497992
18.64 0.0236702
18.92 -0.0650293
19.2 -0.063101
19.48 0.0291771
19.76 0.212013
20.04 6.87271
20.32 0.424817
20.6 -0.0254364
20.88 0.0116371
21.16 -0.0129253
21.44 -0.0251636
21.72 -0.0499667
22 -0.0343637
22.28 -0.0109636
22.56 0.0715581
22.84 0.143751
23.12 -0.0126397
23.4 0.055953
23.68 -0.105085
23.96 -0.105367
24.24 -0.0165299
24.52 1.2149
24.8 2.59912
25.08 0.186354
25.36 0.186609
25.64 0.196927
25.92 0.388118
26.2 0.138217
26.48 0.0146511
26.76 0.149687
27.04 0.145974
27.32 0.0652989
27.6 0.174812
27.88 0.175664
28.16 0.20531
28.44 10.2764
28.72 2.73791
29 0.0577321
29.28 -0.0912686
29.56 0.100938
29.84 -0.0443687
30.12 -0.0218717
30.4 0.0342309
30.68 0.14826
30.96 -0.0283048
31.24 0.0402408
31.52 0.0508486
31.8 0.483283
32.08 14.2201
32.36 0.262331
32.64 0.16955
32.92 -0.0225776
33.2 0.165491
33.48 0.181832
33.76 0.11597
34.04 0.111339
34.32 0.189298
34.6 0.0713638
34.88 0.10077
35.16 3.268
35.44 0.511516
35.72 0.12035
36 -0.0217818
36.28 0.0399181
36.56 0.0145158
36.84 0.0204739
37.12 0.0589349
37.4 -0.0147432
37.68 0.053418
37.96 -0.0151956
38.24 -0.0160067
38.52 0.109612
38.8 0.110505
39.08 -0.00548974
39.36 0.00880764
39.64 -0.0155628
39.92 -0.00422658
40.2 0.0457788
40.48 0.0384147
40.76 5.59679
41.04 7.22441
41.32 0.121587
41.6 -0.0227052
41.88 -0.0813135
42.16 0.00973527
42.44 0.0985349
42.72 -0.0183158
43 0.0955054
43.28 0.96806
43.56 4.08926
43.84 0.249484
44.12 0.0625509
44.4 0.115614
44.68 0.00409244
44.96 -0.0204341
45.24 -0.0440263
45.52 -0.0220582
45.8 0.0969602
46.08 0.0448502
46.36 -0.0169916
46.64 0.0104079
46.92 0.0633299
47.2 -0.0259133
47.48 0.097666
47.76 0.00405135
48.04 0.0914301
48.32 0.115157
48.6 -0.0734315
48.88 -0.000830897
49.16 -0.01135
49.44 0.229324
49.72 -0.0119844
50 0.00599551
50.28 -0.0470577
50.56 1.4365
50.84 0.324962
51.12 0.0108674
51.4 -0.0280041
51.68 0.0214229
51.96 0.0783661
52.24 0.0639821
52.52 0.236996
52.8 1.08057
53.08 0.348678
53.36 0.0130177
53.64 -0.0477009
53.92 -0.0286367
54.2 0.00906858
54.48 -0.0293113
54.76 0.0935986
55.04 0.607514
55.32 0.194701
55.6 0.0257393
55.88 -0.00128419
56.16 -0.0578594
56.44 -0.0483214
56.72 0.0836152
57 0.136475
57.28 -0.0237393
57.56 -0.0428953
57.84 0.0588619
58.12 0.0533221
58.4 0.0358913
58.68 -0.0196274
58.96 0.306718
59.24 0.237106
59.52 0.0288039
59.8 0.0356065
60.08 0.0649869
60.36 -0.0097926
60.64 0.00925956
60.92 0.0555706
61.2 0.763461
61.48 0.0283244
61.76 -0.00927169
62.04 0.0470264
62.32 -0.0270464
62.6 0.0655163
62.88 0.0489789
63.16 0.220629
63.44 0.0103361
63.72 0.0464962
64 0.06011
64.28 0.0649717
64.56 -0.0278137
64.84 0.10881
65.12 -0.062748
65.4 -0.0244783
65.68 0.0128598
65.96 0.0122927
66.24 -0.00784153
66.52 -0.0334713
66.8 0.419673
67.08 0.594578
67.36 0.0624444
67.64 -0.0109719
67.92 0.049137
68.2 -0.0352347
68.48 0.0196833
68.76 0.394332
69.04 0.304781
69.32 -0.0173895
69.6 0.0145073
69.88 -0.0329566
70.16 0.0474865
70.44 0.0285534
70.72 0.0684102
71 0.137415
71.28 -0.0345563
71.56 0.0470659
71.84 0.0330719
72.12 -0.0447572
72.4 -0.0112393
72.68 0.0707173
72.96 -0.057372
73.24 -0.0135184
73.52 -0.0155451
73.8 -0.0235825
74.08 0.105998
74.36 0.275905
74.64 0.154898
74.92 0.0455267
75.2 0.0865516
75.48 0.0383761
75.76 0.00161014
76.04 0.0722745
76.32 0.0755134
76.6 0.0987777
76.88 -0.011916
77.16 -0.0264095
77.44 -0.0100677
77.72 0.01313
78 0.197178
78.28 0.204855
78.56 0.104662
78.84 0.00669409
79.12 0.0471845
79.4 0.0273493
79.68 0.0190263
79.96 0.048953
80.24 0.0223722
80.52 0.00104585
80.8 -0.0377276
81.08 0.0780842
81.36 0.0298547
81.64 -0.0373111
81.92 -0.0546444
82.2 -0.055263
82.48 0.12617
82.68 -0.0693511

File: sample2.xy
'Id: "" Comment: "Integrate frame 4_CTAB_001.gfrmwith cursor Full Frame Cursor #20" Operator: "MAF user" Anode: "Cu" Scantype: "TwoTheta" TimePerStep: "60"
4.64 -0.11853
4.92 0.543248
5.2 0.487188
5.48 0.122032
5.76 0.184028
6.04 0.0615106
6.32 0.170081
6.6 0.207065
6.88 0.423219
7.16 0.241648
7.44 0.119929
7.72 -0.039507
8 0.112215
8.28 0.131575
8.56 0.133713
8.84 0.0597309
9.12 0.0153219
9.4 0.383902
9.68 -0.0273956
9.96 0.000402643
10.24 0.0371223
10.52 0.0669633
10.8 0.0878195
11.08 -0.0628624
11.36 -0.00715709
11.64 0.104722
11.92 0.0530812
12.2 -0.0486704
12.48 0.0792919
12.76 0.341361
13.04 0.0339146
13.32 0.0957492
13.6 0.183134
13.88 1.7238
14.16 26.4912
14.44 1.26487
14.72 0.0373159
15 -0.0664911
15.28 0.122739
15.56 0.0339693
15.84 0.00697915
16.12 -0.00765209
16.4 0.141423
16.68 0.0203112
16.96 -0.00284995
17.24 0.104451
17.52 -0.0412055
17.8 -0.0405003
18.08 -0.0619979
18.36 -0.0214333
18.64 -0.0103201
18.92 0.0204598
19.2 0.0912488
19.48 -0.0729609
19.76 0.0193807
20.04 7.97478
20.32 0.730787
20.6 0.173566
20.88 0.0210335
21.16 0.0242718
21.44 -0.101277
21.72 0.0209551
22 0.100171
22.28 0.0324025
22.56 0.119378
22.84 0.0303049
23.12 -0.0157242
23.4 -0.0686838
23.68 0.108529
23.96 0.221722
24.24 0.0717981
24.52 1.72032
24.8 2.26191
25.08 0.0922354
25.36 -0.107024
25.64 0.0472341
25.92 0.0451963
26.2 -0.0491633
26.48 0.0333042
26.76 0.219676
27.04 0.0915218
27.32 -0.00583175
27.6 0.167212
27.88 0.236984
28.16 0.241896
28.44 4.9454
28.72 2.99814
29 0.138498
29.28 0.0171835
29.56 0.0493908
29.84 -0.0471549
30.12 -0.0590112
30.4 0.0330801
30.68 0.00863151
30.96 0.064067
31.24 -0.0955258
31.52 -0.0125856
31.8 0.607226
32.08 15.517
32.36 0.524884
32.64 0.137114
32.92 0.0265695
33.2 -0.00964025
33.48 0.0840459
33.76 0.115039
34.04 -0.00675545
34.32 0.0985969
34.6 -0.00663479
34.88 0.0164365
35.16 3.29696
35.44 0.208462
35.72 0.0436883
36 0.0223768
36.28 -0.0288453
36.56 0.0233103
36.84 0.0517378
37.12 0.00483532
37.4 0.0233514
37.68 0.144607
37.96 0.123006
38.24 -0.0703475
38.52 0.085881
38.8 0.0921365
39.08 0.0467787
39.36 -0.017231
39.64 0.0728177
39.92 -0.0311892
40.2 0.0497381
40.48 0.049625
40.76 8.19443
41.04 6.38979
41.32 0.28301
41.6 0.0773796
41.88 0.00159378
42.16 -0.0297326
42.44 0.0350239
42.72 -0.0808824
43 0.0462374
43.28 0.882984
43.56 3.91662
43.84 0.199909
44.12 0.0590332
44.4 0.0127144
44.68 0.00416376
44.96 -0.0631333
45.24 0.00423318
45.52 -0.057241
45.8 0.0820798
46.08 0.0997398
46.36 0.0875926
46.64 0.0314467
46.92 -0.0521043
47.2 0.026436
47.48 0.0854565
47.76 0.0244679
48.04 -0.00751196
48.32 0.0824751
48.6 0.015472
48.88 -0.00105053
49.16 -0.016018
49.44 0.192545
49.72 -0.0124075
50 -0.0512708
50.28 -0.0333484
50.56 1.05008
50.84 0.196993
51.12 -0.0164559
51.4 -0.0240386
51.68 0.0501004
51.96 -0.0118896
52.24 -0.0620438
52.52 0.181853
52.8 1.14597
53.08 0.33425
53.36 0.0109922
53.64 0.0186831
53.92 0.0771362
54.2 -0.0549259
54.48 0.00215702
54.76 0.145036
55.04 0.459754
55.32 0.115346
55.6 0.0719645
55.88 -0.0430645
56.16 0.0876721
56.44 -0.0517886
56.72 -0.0229355
57 0.0863675
57.28 -0.00569911
57.56 -0.0247947
57.84 0.00425289
58.12 0.0243492
58.4 0.0393801
58.68 0.0762737
58.96 0.0465846
59.24 0.129053
59.52 -0.0552809
59.8 -0.0603607
60.08 -0.0330127
60.36 0.00926709
60.64 0.0419613
60.92 -0.0654245
61.2 0.432865
61.48 0.00179032
61.76 -0.00643294
62.04 -0.00962176
62.32 0.0339704
62.6 -0.0522842
62.88 0.015046
63.16 0.129069
63.44 0.0702322
63.72 -0.0125055
64 -0.0125597
64.28 0.0447828
64.56 -0.0639214
64.84 0.0253365
65.12 0.0043654
65.4 0.0232598
65.68 0.0350506
65.96 0.0650868
66.24 0.04831
66.52 0.0396977
66.8 0.269499
67.08 0.616641
67.36 0.107859
67.64 -0.0526406
67.92 0.0269912
68.2 0.0829387
68.48 -0.00146156
68.76 0.631827
69.04 0.43756
69.32 -0.0436868
69.6 -0.00956475
69.88 0.0255541
70.16 0.0314358
70.44 -0.0133928
70.72 0.0848729
71 -0.0200573
71.28 0.0211536
71.56 -0.0159333
71.84 -0.0555605
72.12 -0.00566824
72.4 0.070661
72.68 0.0239847
72.96 0.0210597
73.24 -0.0508482
73.52 -0.0142008
73.8 0.0281873
74.08 -0.0190194
74.36 0.200094
74.64 0.0633944
74.92 -0.00283883
75.2 -0.0154994
75.48 -0.0101232
75.76 0.0586446
76.04 0.210474
76.32 0.159731
76.6 0.13038
76.88 -0.00921866
77.16 -0.0149513
77.44 -0.0572974
77.72 0.027494
78 0.087854
78.28 0.0216371
78.56 0.0209021
78.84 -0.0299935
79.12 -0.0244142
79.4 0.0246856
79.68 -0.047903
79.96 -0.027421
80.24 -0.0351272
80.52 -0.0389621
80.8 -0.0551848
81.08 -0.00062806
81.36 0.0146502
81.64 -0.00419799
81.92 0.0514148
82.2 -0.055604
82.48 0.070621
82.68 -0.063717